#
# Results on Mon, 08 Aug 2022 19:04:29 GMT
# USER AGENT: Mozilla/5.0 (Windows NT 10.0; Win64; x64) AppleWebKit/537.36 (KHTML, like Gecko) Chrome/103.0.0.0 Safari/537.36
# Design number was non-random = 0
#
# Columns below this comment are as follows:
# 1. Results reception time.
# 2. MD5 hash of participant's IP address.
# 3. Controller name.
# 4. Order number of item.
# 5. Inner element number.
# 6. Label.
# 7. Latin Square Group.
# 8. Word number.
# 9. Word.
# 10. Reading time.
# 11. Newline?.
# 12. Sentence (or sentence MD5).
1659985469,8ab62bb003b09628f65419dc587b86f7,DashedSentence,4,0,practice-1,NULL,1,The,132,false,The car drove like a dream.
1659985469,8ab62bb003b09628f65419dc587b86f7,DashedSentence,4,0,practice-1,NULL,2,car,115,false,The car drove like a dream.
1659985469,8ab62bb003b09628f65419dc587b86f7,DashedSentence,4,0,practice-1,NULL,3,drove,110,false,The car drove like a dream.
1659985469,8ab62bb003b09628f65419dc587b86f7,DashedSentence,4,0,practice-1,NULL,4,like,112,false,The car drove like a dream.
1659985469,8ab62bb003b09628f65419dc587b86f7,DashedSentence,4,0,practice-1,NULL,5,a,118,false,The car drove like a dream.
1659985469,8ab62bb003b09628f65419dc587b86f7,DashedSentence,4,0,practice-1,NULL,6,dream.,117,false,The car drove like a dream.
1659985469,8ab62bb003b09628f65419dc587b86f7,DashedSentence,6,0,practice-2,NULL,1,The,122,false,The cat ever has eaten cheese the.
1659985469,8ab62bb003b09628f65419dc587b86f7,DashedSentence,6,0,practice-2,NULL,2,cat,112,false,The cat ever has eaten cheese the.
1659985469,8ab62bb003b09628f65419dc587b86f7,DashedSentence,6,0,practice-2,NULL,3,ever,117,false,The cat ever has eaten cheese the.
1659985469,8ab62bb003b09628f65419dc587b86f7,DashedSentence,6,0,practice-2,NULL,4,has,111,false,The cat ever has eaten cheese the.
1659985469,8ab62bb003b09628f65419dc587b86f7,DashedSentence,6,0,practice-2,NULL,5,eaten,115,false,The cat ever has eaten cheese the.
1659985469,8ab62bb003b09628f65419dc587b86f7,DashedSentence,6,0,practice-2,NULL,6,cheese,121,false,The cat ever has eaten cheese the.
1659985469,8ab62bb003b09628f65419dc587b86f7,DashedSentence,6,0,practice-2,NULL,7,the.,123,false,The cat ever has eaten cheese the.
1659985469,8ab62bb003b09628f65419dc587b86f7,DashedSentence,14,0,filler-good-01,NULL,1,When,88,false,When Harry fell%2C the audience was shocked.
1659985469,8ab62bb003b09628f65419dc587b86f7,DashedSentence,14,0,filler-good-01,NULL,2,Harry,103,false,When Harry fell%2C the audience was shocked.
1659985469,8ab62bb003b09628f65419dc587b86f7,DashedSentence,14,0,filler-good-01,NULL,3,fell%2C,78,false,When Harry fell%2C the audience was shocked.
1659985469,8ab62bb003b09628f65419dc587b86f7,DashedSentence,14,0,filler-good-01,NULL,4,the,65,false,When Harry fell%2C the audience was shocked.
1659985469,8ab62bb003b09628f65419dc587b86f7,DashedSentence,14,0,filler-good-01,NULL,5,audience,60,false,When Harry fell%2C the audience was shocked.
1659985469,8ab62bb003b09628f65419dc587b86f7,DashedSentence,14,0,filler-good-01,NULL,6,was,62,false,When Harry fell%2C the audience was shocked.
1659985469,8ab62bb003b09628f65419dc587b86f7,DashedSentence,14,0,filler-good-01,NULL,7,shocked.,60,false,When Harry fell%2C the audience was shocked.
1659985469,8ab62bb003b09628f65419dc587b86f7,DashedSentence,13,0,gp.intrans,2,1,Since,60,false,Since Dave worried the counselor devised a plan.
1659985469,8ab62bb003b09628f65419dc587b86f7,DashedSentence,13,0,gp.intrans,2,2,Dave,187,false,Since Dave worried the counselor devised a plan.
1659985469,8ab62bb003b09628f65419dc587b86f7,DashedSentence,13,0,gp.intrans,2,3,worried,80,false,Since Dave worried the counselor devised a plan.
1659985469,8ab62bb003b09628f65419dc587b86f7,DashedSentence,13,0,gp.intrans,2,4,the,60,false,Since Dave worried the counselor devised a plan.
1659985469,8ab62bb003b09628f65419dc587b86f7,DashedSentence,13,0,gp.intrans,2,5,counselor,65,false,Since Dave worried the counselor devised a plan.
1659985469,8ab62bb003b09628f65419dc587b86f7,DashedSentence,13,0,gp.intrans,2,6,devised,66,false,Since Dave worried the counselor devised a plan.
1659985469,8ab62bb003b09628f65419dc587b86f7,DashedSentence,13,0,gp.intrans,2,7,a,64,false,Since Dave worried the counselor devised a plan.
1659985469,8ab62bb003b09628f65419dc587b86f7,DashedSentence,13,0,gp.intrans,2,8,plan.,156,false,Since Dave worried the counselor devised a plan.
1659985469,8ab62bb003b09628f65419dc587b86f7,DashedSentence,15,0,filler-bad-01,NULL,1,When,74,false,When Tyler sneezed the driver%2C he passed a tissue.
1659985469,8ab62bb003b09628f65419dc587b86f7,DashedSentence,15,0,filler-bad-01,NULL,2,Tyler,85,false,When Tyler sneezed the driver%2C he passed a tissue.
1659985469,8ab62bb003b09628f65419dc587b86f7,DashedSentence,15,0,filler-bad-01,NULL,3,sneezed,78,false,When Tyler sneezed the driver%2C he passed a tissue.
1659985469,8ab62bb003b09628f65419dc587b86f7,DashedSentence,15,0,filler-bad-01,NULL,4,the,78,false,When Tyler sneezed the driver%2C he passed a tissue.
1659985469,8ab62bb003b09628f65419dc587b86f7,DashedSentence,15,0,filler-bad-01,NULL,5,driver%2C,81,false,When Tyler sneezed the driver%2C he passed a tissue.
1659985469,8ab62bb003b09628f65419dc587b86f7,DashedSentence,15,0,filler-bad-01,NULL,6,he,76,false,When Tyler sneezed the driver%2C he passed a tissue.
1659985469,8ab62bb003b09628f65419dc587b86f7,DashedSentence,15,0,filler-bad-01,NULL,7,passed,90,false,When Tyler sneezed the driver%2C he passed a tissue.
1659985469,8ab62bb003b09628f65419dc587b86f7,DashedSentence,15,0,filler-bad-01,NULL,8,a,74,false,When Tyler sneezed the driver%2C he passed a tissue.
1659985469,8ab62bb003b09628f65419dc587b86f7,DashedSentence,15,0,filler-bad-01,NULL,9,tissue.,78,false,When Tyler sneezed the driver%2C he passed a tissue.
1659985469,8ab62bb003b09628f65419dc587b86f7,DashedSentence,10,0,gp.trans,1,1,While,77,false,While Anna trained the kitten paid attention.
1659985469,8ab62bb003b09628f65419dc587b86f7,DashedSentence,10,0,gp.trans,1,2,Anna,80,false,While Anna trained the kitten paid attention.
1659985469,8ab62bb003b09628f65419dc587b86f7,DashedSentence,10,0,gp.trans,1,3,trained,77,false,While Anna trained the kitten paid attention.
1659985469,8ab62bb003b09628f65419dc587b86f7,DashedSentence,10,0,gp.trans,1,4,the,76,false,While Anna trained the kitten paid attention.
1659985469,8ab62bb003b09628f65419dc587b86f7,DashedSentence,10,0,gp.trans,1,5,kitten,72,false,While Anna trained the kitten paid attention.
1659985469,8ab62bb003b09628f65419dc587b86f7,DashedSentence,10,0,gp.trans,1,6,paid,84,false,While Anna trained the kitten paid attention.
1659985469,8ab62bb003b09628f65419dc587b86f7,DashedSentence,10,0,gp.trans,1,7,attention.,73,false,While Anna trained the kitten paid attention.
1659985469,8ab62bb003b09628f65419dc587b86f7,DashedSentence,16,0,filler-catch-01,NULL,1,This,71,false,This sentence is an attention check. Please_Wait_Three_Seconds_Before_Proceeding
1659985469,8ab62bb003b09628f65419dc587b86f7,DashedSentence,16,0,filler-catch-01,NULL,2,sentence,92,false,This sentence is an attention check. Please_Wait_Three_Seconds_Before_Proceeding
1659985469,8ab62bb003b09628f65419dc587b86f7,DashedSentence,16,0,filler-catch-01,NULL,3,is,63,false,This sentence is an attention check. Please_Wait_Three_Seconds_Before_Proceeding
1659985469,8ab62bb003b09628f65419dc587b86f7,DashedSentence,16,0,filler-catch-01,NULL,4,an,81,false,This sentence is an attention check. Please_Wait_Three_Seconds_Before_Proceeding
1659985469,8ab62bb003b09628f65419dc587b86f7,DashedSentence,16,0,filler-catch-01,NULL,5,attention,84,false,This sentence is an attention check. Please_Wait_Three_Seconds_Before_Proceeding
1659985469,8ab62bb003b09628f65419dc587b86f7,DashedSentence,16,0,filler-catch-01,NULL,6,check.,67,false,This sentence is an attention check. Please_Wait_Three_Seconds_Before_Proceeding
1659985469,8ab62bb003b09628f65419dc587b86f7,DashedSentence,16,0,filler-catch-01,NULL,7,Please Wait Three Seconds Before Proceeding,89,false,This sentence is an attention check. Please_Wait_Three_Seconds_Before_Proceeding